File: XRD_profiles_2D.csv
2theta,x=0.00,x=0.005,x=0.01,x=0.02,x=0.03,x=0.04,x=0.05,x=0.06,x=0.08,x=0.10
10.1,0.04,0.10662,0.10749,0.05311,0.01696,0.1984,0.20291,0.10586,0.13538,0.06085
10.22,0.03697,0.11185,0.09899,0.06803,0.00994,0.19234,0.18737,0.10638,0.13399,0.05002
10.34,0.03658,0.10554,0.1066,0.06461,0.0186,0.18557,0.1953,0.10443,0.13343,0.05421
10.46,0.03693,0.1009,0.09897,0.05366,0.01927,0.19047,0.18878,0.10352,0.13324,0.05128
10.58,0.03334,0.10051,0.09646,0.04823,0.01979,0.18317,0.18118,0.09838,0.13525,0.04282
10.7,0.03461,0.0977,0.09602,0.05888,0.02831,0.187,0.17889,0.09591,0.13092,0.04384
10.82,0.03253,0.10144,0.09318,0.05421,0.01616,0.16892,0.18226,0.09773,0.12721,0.05883
10.94,0.03288,0.09563,0.08664,0.05079,0.02,0.161,0.1614,0.09695,0.11893,0.04958
11.06,0.03038,0.09075,0.09,0.0416,0.01554,0.16376,0.16639,0.09317,0.11497,0.06062
11.18,0.02964,0.09203,0.08151,0.03843,0.03069,0.15815,0.15737,0.08595,0.11811,0.04399
11.3,0.02972,0.08621,0.08367,0.04205,0.01869,0.16144,0.16433,0.08641,0.11409,0.05371
11.42,0.02989,0.0874,0.06941,0.05245,0.01559,0.15735,0.1514,0.08185,0.10894,0.04129
11.54,0.02785,0.08754,0.07136,0.0528,0.01656,0.15183,0.15444,0.08192,0.10386,0.04548
11.66,0.02781,0.08439,0.07342,0.05189,0.02432,0.14737,0.14955,0.0758,0.10134,0.03544
11.78,0.02669,0.07744,0.06307,0.05099,0.0259,0.14123,0.14151,0.07723,0.1004,0.05912
11.9,0.02658,0.07828,0.06829,0.04506,0.01601,0.14123,0.13879,0.07418,0.10536,0.04434
12.02,0.02493,0.07966,0.05228,0.05244,0.01759,0.12885,0.13933,0.06969,0.09538,0.04536
12.14,0.02556,0.07488,0.05782,0.0548,0.02927,0.12787,0.14129,0.06806,0.09701,0.05166
12.26,0.02612,0.07295,0.04595,0.04561,0.02527,0.1293,0.13205,0.0693,0.08483,0.05163
12.38,0.02324,0.07251,0.03962,0.04244,0.02594,0.11968,0.12162,0.06546,0.08558,0.04422
12.5,0.02327,0.06571,0.04332,0.05309,0.01831,0.11915,0.11542,0.06168,0.08357,0.04472
12.62,0.02331,0.06512,0.0494,0.03335,0.02954,0.11371,0.12368,0.05836,0.08596,0.04627
12.74,0.02324,0.06309,0.03405,0.06234,0.03172,0.1089,0.11662,0.05843,0.08207,0.05307
12.86,0.022,0.06132,0.04656,0.04937,0.02968,0.10374,0.11021,0.05986,0.07899,0.04297
12.98,0.02119,0.06236,0.03643,0.03968,0.02655,0.10454,0.11488,0.05257,0.07416,0.04552
13.1,0.02081,0.06083,0.02619,0.05585,0.02721,0.0976,0.11836,0.0555,0.0756,0.03332
13.22,0.02091,0.06157,0.0338,0.05965,0.01565,0.09573,0.11053,0.05355,0.07497,0.03956
13.34,0.02095,0.05723,0.02889,0.03264,0.02461,0.10116,0.10542,0.04958,0.07522,0.03447
13.46,0.02053,0.06024,0.0316,0.04381,0.01381,0.09653,0.09999,0.04685,0.07403,0.02438
13.58,0.0226,0.05787,0.03529,0.03639,0.03182,0.09786,0.10292,0.05251,0.07133,0.01797
13.7,0.02176,0.05629,0.02397,0.0433,0.0183,0.09875,0.1039,0.05166,0.06982,0.02131
13.82,0.01743,0.05432,0.03125,0.02809,0.01323,0.09448,0.10064,0.04626,0.06951,0.01965
13.94,0.01905,0.05343,0.02656,0.02143,0.01706,0.09546,0.09684,0.04854,0.06737,0.00903
14.06,0.01708,0.0554,0.02655,0.03989,0.01516,0.0943,0.0951,0.05023,0.06562,0.03635
14.18,0.01855,0.05294,0.02535,0.03825,0.01371,0.09225,0.09499,0.04451,0.06719,0.02388
14.3,0.01792,0.05614,0.02567,0.03711,0.0198,0.08923,0.09771,0.04626,0.06361,0.01194
14.42,0.01771,0.05363,0.02849,0.0425,0.01307,0.08736,0.0889,0.04431,0.06524,0.0195
14.54,0.01806,0.04993,0.02891,0.04137,0.01585,0.09101,0.09021,0.046,0.07039,0.01309
14.66,0.01736,0.05166,0.02586,0.03621,0.01892,0.08175,0.09206,0.04288,0.06493,0.01696
14.78,0.01919,0.05309,0.02193,0.03608,0.02487,0.09163,0.09206,0.04353,0.06474,0.01978
14.9,0.01725,0.05245,0.02715,0.03997,0.00969,0.09092,0.09619,0.03852,0.06499,0.01917
15.02,0.01743,0.04988,0.02551,0.01873,0.01427,0.08646,0.08814,0.04424,0.06373,0.02673
15.14,0.0176,0.04944,0.02637,0.03342,0.02308,0.08709,0.09619,0.03917,0.05883,0.0277
15.26,0.01887,0.04983,0.02843,0.01445,0.02073,0.07961,0.09042,0.04268,0.06631,0.02498
15.38,0.01704,0.05235,0.03125,0.02889,0.01369,0.08406,0.0939,0.04171,0.06449,0.01331
15.5,0.01894,0.04796,0.02906,0.03177,0.01783,0.08183,0.09119,0.04333,0.06122,0.02613
15.62,0.01609,0.04801,0.02263,0.01958,0.02437,0.08148,0.08771,0.04073,0.06449,0.0358
15.74,0.01595,0.04821,0.0236,0.03251,0.02081,0.07809,0.08293,0.03839,0.05902,0.02333
15.86,0.01563,0.04791,0.02686,0.04243,0.02328,0.0764,0.08673,0.03936,0.05827,3.29E-04
15.98,0.0169,0.04594,0.02097,0.04682,0.01836,0.07133,0.07999,0.03605,0.06066,0.0237
16.1,0.01581,0.04969,0.02521,0.03488,0.01329,0.07329,0.08043,0.0339,0.05657,0.02256
16.22,0.01581,0.04569,0.02237,0.04027,0.01637,0.07195,0.08488,0.03117,0.0562,0.02142
16.34,0.01651,0.04584,0.01768,0.03562,0.02789,0.08032,0.07575,0.03689,0.05626,0.02529
16.46,0.01468,0.04392,0.02159,0.01639,0.02826,0.07168,0.0726,0.03273,0.05287,0.01968
16.58,0.01591,0.04284,0.0242,0.03058,0.02436,0.06527,0.08162,0.03488,0.0572,0.03198
16.7,0.01662,0.04426,0.02364,0.03321,0.01708,0.07097,0.0713,0.03201,0.05576,0.02478
16.82,0.0162,0.04555,0.01928,0.03911,0.02534,0.06768,0.06967,0.03097,0.05381,0.04631
16.94,0.01753,0.04441,0.02058,0.01335,0.01414,0.0699,0.07108,0.03221,0.05532,0.03173
17.06,0.01461,0.04362,0.01056,0.02201,0.01531,0.06625,0.0663,0.0298,0.05099,0.03112
17.18,0.01581,0.04155,0.02143,0.04374,0.02116,0.06198,0.0738,0.03071,0.04766,0.02814
17.3,0.01595,0.04185,0.02415,0.03607,0.0163,0.06518,0.07086,0.03052,0.05086,0.00777
17.42,0.01655,0.04007,0.02261,0.03468,0.00751,0.06928,0.0763,0.03409,0.0523,0.02455
17.54,0.01866,0.04338,0.0213,0.02601,0.02452,0.06118,0.07151,0.02947,0.05161,0.02341
17.66,0.01746,0.04303,0.0263,0.03793,0.02418,0.06723,0.07336,0.02902,0.0523,0.03624
17.78,0.01862,0.04658,0.0178,0.0368,0.01796,0.06554,0.07597,0.03058,0.05331,0.03458
17.9,0.0175,0.04224,0.01714,0.03239,0.014,0.06322,0.07097,0.03104,0.04904,0.03265
18.02,0.01676,0.04126,0.02225,0.04759,0.00989,0.05984,0.06858,0.03292,0.04515,0.04074
18.14,0.01824,0.04648,0.02209,0.04444,0.02373,0.0642,0.07336,0.02882,0.04866,0.03644
18.26,0.02764,0.06704,0.05066,0.06792,0.04919,0.07133,0.09042,0.02961,0.05632,0.04821
18.38,0.07615,0.10356,0.0849,0.08814,0.09547,0.10303,0.15922,0.03748,0.08879,0.06942
18.5,0.13777,0.14181,0.13818,0.2209,0.06918,0.14408,0.16292,0.07463,0.14348,0.07992
18.62,0.03581,0.10258,0.04713,0.10923,0.03007,0.14203,0.13803,0.12903,0.07849,0.08541
18.74,0.01577,0.03978,0.01421,0.04704,0.02521,0.0585,0.09021,0.06572,0.04716,0.08932
18.86,0.01341,0.03312,0.00992,0.04792,0.02954,0.05735,0.06891,0.03162,0.04653,0.05714
18.98,0.01296,0.03579,0.01585,0.02689,0.00401,0.04809,0.06097,0.02889,0.04056,0.05235
19.1,0.01264,0.03396,0.01101,0.03411,0.01604,0.05859,0.05554,0.02167,0.03849,0.02069
19.22,0.01391,0.035,0.01564,0.0353,0.00907,0.04907,0.05836,0.02238,0.04584,0.01855
19.34,0.01271,0.03475,0.00492,0.0302,0.02019,0.0488,0.05793,0.02433,0.0491,0.02456
19.46,0.01271,0.03584,0.0101,0.02486,0.01563,0.04942,0.06162,0.02726,0.03767,0.02848
19.58,0.01373,0.03722,0.01723,0.0459,0.01046,0.04568,0.05217,0.02629,0.04238,0.02685
19.7,0.01813,0.04146,0.01859,0.03453,0.03064,0.05512,0.06575,0.02186,0.04257,0.02102
19.82,0.04105,0.0593,0.05707,0.03848,0.03725,0.05654,0.08282,0.02648,0.06078,0.03099
19.94,0.08129,0.05905,0.04908,0.03992,0.01986,0.07925,0.08369,0.03338,0.06449,0.04043
20.06,0.01447,0.0382,0.01507,0.01976,0.01167,0.05815,0.06445,0.05283,0.04245,0.01062
20.18,0.01243,0.02938,0.00511,0.03049,0.02295,0.04497,0.05478,0.02342,0.03453,0.03244
20.3,0.01014,0.0314,0.01116,0.03218,0.00223,0.04167,0.05706,0.01757,0.04088,0.02977
20.42,0.01317,0.03096,0.00653,0.03488,0.01279,0.03865,0.05815,0.01958,0.03435,0.01023
20.54,0.0119,0.03066,0.00659,0.0205,0.01279,0.0423,0.05173,0.02069,0.04025,0.0173
20.66,0.0119,0.02923,0.01111,0.02545,0.01053,0.04025,0.04597,0.01939,0.0351,0.02517
20.78,0.01514,0.03613,0.0103,0.03745,0.01672,0.04408,0.05206,0.01958,0.03592,0.02486
20.9,0.02109,0.04604,0.02799,0.0424,0.02759,0.05485,0.06293,0.02134,0.04389,0.01797
21.02,0.03193,0.04959,0.02631,0.0451,0.03468,0.05833,0.06988,0.02746,0.05343,0.03426
21.14,0.01591,0.04052,0.01058,0.03272,0.0205,0.05361,0.06456,0.03904,0.04307,0.0416
21.26,0.01053,0.03194,0.0101,0.0314,0.0125,0.04337,0.0463,0.03019,0.03403,0.02917
21.38,0.01183,0.02652,0.0083,0.02857,0.01341,0.0431,0.04945,0.01906,0.03384,0.03651
21.5,0.01232,0.0276,0.01522,0.02248,0.0276,0.0439,0.05391,0.02102,0.04213,0.03515
21.62,0.01285,0.0315,0.01626,0.02392,0.02141,0.04755,0.05423,0.02427,0.04716,0.03379
21.74,0.01451,0.02824,3.14E-04,0.04922,0.01131,0.04354,0.0538,0.03084,0.03698,0.03138
21.86,0.01577,0.02903,0.01082,0.03057,0.02036,0.03847,0.04749,0.01932,0.03479,0.03187
21.98,0.02031,0.02948,0.00827,0.03176,0.00905,0.03437,0.0451,0.01672,0.03981,0.03071
22.1,0.01084,0.02721,0.0031,0.0347,0.01388,0.04069,0.04749,0.02043,0.0442,0.02299
22.22,0.00891,0.02854,0.01012,0.02635,0.00739,0.03589,0.0513,0.01848,0.0373,0.01923
22.34,0.00982,0.02667,0.00746,0.03105,0.02248,0.03633,0.04271,0.01958,0.04037,0.02838
22.46,0.01,0.02696,0.01166,0.02898,0.01569,0.03695,0.04554,0.01549,0.03993,0.01908
22.58,0.01211,0.02987,0.00932,0.03997,0.0166,0.03286,0.04695,0.01412,0.04044,0.01716
22.7,0.01169,0.02741,0.00578,0.0409,0.01479,0.03482,0.045,0.01633,0.03479,0.02552
22.82,0.01155,0.02637,0.00617,0.01902,0.02355,0.03633,0.0438,0.0147,0.03416,0.02887
22.94,0.01767,0.02706,0.00873,0.02887,0.01751,0.03384,0.04663,0.01698,0.03592,0.03012
23.06,0.01539,0.03303,0.01369,0.02114,0.02913,0.03428,0.04782,0.01705,0.03793,0.0282
23.18,0.01331,0.04052,0.01233,0.03124,0.01993,0.035,0.04184,0.01418,0.03805,0.02391
23.3,0.01282,0.02948,0.01402,0.02501,0.0142,0.03669,0.04217,0.01444,0.03799,0.01619
23.42,0.0181,0.02992,0.00994,0.0444,0.0225,0.03704,0.04119,0.01646,0.03667,0.01269
23.54,0.01475,0.02765,0.00673,0.03365,0.01949,0.03482,0.04326,0.01425,0.03667,0.02316
23.66,0.01141,0.02751,0.01256,0.02542,0.01539,0.03553,0.04413,0.01711,0.04232,0.02651
23.78,0.01408,0.02958,0.01926,0.03853,0.01673,0.03731,0.04652,0.01705,0.03912,0.02591
23.9,0.01672,0.03243,0.0105,0.03557,0.01837,0.04034,0.05271,0.01581,0.04257,0.02926
24.02,0.01229,0.02943,0.0049,0.03813,0.01352,0.03491,0.04369,0.01828,0.04383,0.02102
24.14,0.01348,0.02647,0.01356,0.02462,0.01486,0.03678,0.0438,0.01815,0.04276,0.01857
24.26,0.01373,0.028,0.01731,0.03773,0.01936,0.03393,0.04565,0.01906,0.04251,0.02298
24.38,0.01521,0.03135,0.02379,0.03653,0.02131,0.03606,0.04597,0.019,0.04546,0.02106
24.5,0.01968,0.03805,0.0195,0.04964,0.02174,0.04078,0.05304,0.0164,0.04791,0.02098
24.62,0.02422,0.03741,0.0238,0.03864,0.03394,0.03989,0.05673,0.02024,0.04615,0.0246
24.74,0.01634,0.03377,0.01624,0.04774,0.00751,0.04096,0.04923,0.02297,0.04289,0.02821
24.86,0.01715,0.03145,0.01924,0.0287,0.02892,0.03989,0.05402,0.01939,0.04326,0.02814
24.98,0.0213,0.03869,0.02256,0.04231,0.02663,0.04586,0.05988,0.01945,0.04967,0.04677
25.1,0.0269,0.04456,0.02371,0.06045,0.03159,0.04889,0.06391,0.02446,0.0621,0.03138
25.22,0.0195,0.04096,0.02757,0.04769,0.03459,0.052,0.06423,0.02967,0.05745,0.03309
25.34,0.01532,0.03741,0.01631,0.049,0.01828,0.04657,0.05978,0.03058,0.05055,0.03242
25.46,0.01609,0.03224,0.00788,0.04126,0.01825,0.04239,0.0526,0.02394,0.0464,0.04573
25.58,0.01363,0.03312,0.01675,0.03453,0.02382,0.03562,0.05239,0.01945,0.05375,0.02741
25.7,0.01493,0.03386,0.02574,0.02931,0.02002,0.03731,0.05999,0.0218,0.05249,0.02754
25.82,0.01655,0.03505,0.01437,0.03087,0.01533,0.03989,0.07021,0.02544,0.05469,0.03978
25.94,0.01627,0.03475,0.02008,0.01886,0.01531,0.04052,0.05521,0.02219,0.05689,0.03411
26.06,0.01426,0.03308,0.01862,0.03022,0.01876,0.03776,0.05304,0.02603,0.04577,0.03556
26.18,0.01996,0.0485,0.03849,0.05363,0.06083,0.05646,0.0701,0.01958,0.05061,0.03516
26.3,0.03915,0.13979,0.12279,0.09287,0.18785,0.13802,0.15813,0.02596,0.08533,0.07138
26.42,0.12213,0.34899,0.31387,0.27205,0.3479,0.23936,0.3054,0.04405,0.28545,0.14924
26.54,0.22656,0.37517,0.23295,0.29697,0.12338,0.35272,0.32246,0.19357,0.31584,0.33433
26.66,0.03704,0.10672,0.04296,0.15985,0.05109,0.17142,0.20661,0.37966,0.08156,0.33472
26.78,0.02778,0.04693,0.02833,0.06746,0.04654,0.05886,0.08814,0.05947,0.06141,0.23288
26.9,0.0263,0.05969,0.04972,0.06248,0.07564,0.0715,0.1014,0.0311,0.06417,0.14026
27.02,0.05352,0.2055,0.19258,0.14971,0.30254,0.1748,0.21889,0.03969,0.11095,0.0985
27.14,0.19428,0.61916,0.56391,0.42937,0.78547,0.45922,0.65417,0.06669,0.39307,0.2193
27.26,0.72144,1,1,0.95624,0.85832,0.82823,0.99478,0.24901,1,0.60622
27.38,0.40165,0.59186,0.46226,0.82013,0.17272,0.86661,0.75111,0.91171,0.44468,1
27.5,0.03957,0.12693,0.05393,0.24996,0.12473,0.22226,0.32627,0.54115,0.11114,0.76035
27.62,0.02176,0.04387,0.02612,0.06589,0.03901,0.06438,0.09977,0.08914,0.06392,0.48698
27.74,0.01778,0.04032,0.01736,0.04259,0.02194,0.04123,0.05923,0.03403,0.05482,0.1675
27.86,0.01862,0.03455,0.0209,0.04267,0.01302,0.03776,0.05782,0.02362,0.05431,0.04168
27.98,0.01574,0.03559,0.01802,0.0347,0.01601,0.03909,0.05586,0.02063,0.05124,0.02126
28.1,0.01366,0.03791,0.01188,0.03427,0.01584,0.03259,0.04913,0.01893,0.05036,0.02112
28.22,0.01229,0.0349,0.01901,0.03887,0.01533,0.03562,0.04576,0.02154,0.05256,0.02178
28.34,0.01352,0.03347,0.01202,0.04899,0.03538,0.03624,0.05315,0.02043,0.05632,0.01791
28.46,0.01197,0.03293,0.01999,0.06916,0.02992,0.03517,0.04836,0.01711,0.05601,0.02739
28.58,0.01289,0.02997,0.02252,0.05516,0.01859,0.0374,0.04836,0.01822,0.05381,0.03872
28.7,0.01243,0.03234,0.01699,0.04971,0.0154,0.0301,0.05065,0.01809,0.05425,0.02529
28.82,0.01363,0.03312,0.01604,0.04676,0.0193,0.03295,0.05217,0.0188,0.05218,0.02503
28.94,0.01711,0.0311,0.01487,0.04634,0.02154,0.03713,0.0513,0.0188,0.05507,0.02266
29.06,0.02031,0.03421,0.01947,0.05369,0.02288,0.03713,0.05402,0.01932,0.05588,0.04321
29.18,0.01739,0.03613,0.02265,0.06834,0.0393,0.04488,0.0701,0.0216,0.0653,0.04295
29.3,0.01813,0.0557,0.0488,0.07318,0.07368,0.0724,0.10032,0.02681,0.10787,0.06219
29.42,0.03295,0.14117,0.11043,0.12777,0.1491,0.1285,0.16759,0.0542,0.14655,0.12701
29.54,0.16326,0.17711,0.14289,0.14015,0.08842,0.14898,0.19302,0.08407,0.19402,0.20579
29.66,0.03063,0.10332,0.04605,0.08596,0.0282,0.11754,0.14433,0.17581,0.08684,0.2166
29.78,0.01595,0.03791,0.02376,0.06167,0.02622,0.04497,0.07488,0.06656,0.05927,0.14467
29.9,0.01422,0.0311,0.01889,0.04214,0.02243,0.03482,0.05543,0.0244,0.05055,0.08222
30.02,0.01127,0.02933,0.02,0.04573,0.02316,0.03143,0.04836,0.01854,0.0476,0.06378
30.14,0.01141,0.02617,0.02373,0.04631,0.02042,0.03321,0.04489,0.01685,0.04697,0.03375
30.26,0.01025,0.02642,0.02321,0.04236,0.02689,0.03126,0.04717,0.01562,0.05325,0.02373
30.38,0.0106,0.03165,0.02161,0.04746,0.02626,0.03268,0.05391,0.01516,0.06103,0.0348
30.5,0.0101,0.02987,0.02392,0.04602,0.01885,0.03384,0.05021,0.0188,0.05896,0.0464
30.62,0.01053,0.02884,0.02438,0.04911,0.03437,0.03357,0.0551,0.01952,0.05507,0.05352
30.74,0.01275,0.03791,0.03072,0.05195,0.03012,0.04141,0.05684,0.0175,0.06555,0.04008
30.86,0.01486,0.04185,0.03673,0.05654,0.04972,0.0512,0.06293,0.02251,0.06982,0.06722
30.98,0.01549,0.03796,0.03621,0.05913,0.03189,0.04194,0.06325,0.02772,0.06693,0.05879
31.1,0.01475,0.03312,0.03058,0.04237,0.0284,0.03562,0.05619,0.02928,0.05745,0.06064
31.22,0.01613,0.03751,0.0379,0.07259,0.04,0.03865,0.06162,0.02141,0.05588,0.0472
31.34,0.02538,0.06886,0.06307,0.08296,0.06713,0.05752,0.0864,0.01887,0.07849,0.06091
31.46,0.09464,0.08602,0.07713,0.08404,0.0478,0.06972,0.09608,0.03052,0.10536,0.07672
31.58,0.03074,0.04451,0.03275,0.07331,0.03948,0.06812,0.08575,0.06754,0.0805,0.10517
31.7,0.01426,0.02908,0.03191,0.05403,0.02829,0.05245,0.0776,0.04151,0.10549,0.09938
31.82,0.01127,0.02682,0.02823,0.05461,0.03144,0.04871,0.07184,0.05205,0.07196,0.12626
31.94,0.01267,0.04007,0.03555,0.08156,0.05797,0.04907,0.07575,0.03364,0.05877,0.10703
32.06,0.02218,0.11613,0.15901,0.14344,0.16314,0.10508,0.15422,0.01932,0.09676,0.09781
32.18,0.13027,0.26707,0.29934,0.19601,0.24594,0.20089,0.25725,0.04177,0.26855,0.15815
32.3,0.10925,0.25435,0.23776,0.27271,0.18737,0.27177,0.29921,0.18609,0.21355,0.26908
32.42,0.14611,0.20624,0.17737,0.25947,0.14147,0.21434,0.24334,0.17151,0.20093,0.33854
32.54,0.04271,0.10149,0.08118,0.19533,0.04443,0.15013,0.13901,0.21283,0.08935,0.29813
32.66,0.01292,0.03209,0.02167,0.06633,0.03535,0.04479,0.07706,0.08882,0.04866,0.20213
32.78,0.00951,0.02396,0.01876,0.04662,0.01238,0.02627,0.0413,0.02037,0.04684,0.08531
32.9,0.00908,0.02258,0.01312,0.04098,0.02095,0.0187,0.04,0.01477,0.04446,0.0536
33.02,0.00725,0.02253,0.01685,0.04739,0.02228,0.0179,0.03271,0.01113,0.04169,0.02005
33.14,0.00662,0.02341,0.01328,0.03019,0.00912,0.02084,0.03521,0.00839,0.04037,0.01205
33.26,0.0075,0.0211,0.01625,0.03234,0.01166,0.01843,0.03739,0.01087,0.04546,0.01802
33.38,0.00866,0.01991,0.01508,0.0375,0.01374,0.02155,0.03456,0.00937,0.04232,0.03321
33.5,0.00965,0.01996,0.01358,0.02784,0.01491,0.01906,0.03337,0.01113,0.04295,0.02047
33.62,0.00648,0.01991,0.01785,0.02772,0.02424,0.02199,0.02793,0.00976,0.04,0.0296
33.74,0.00599,0.01927,0.01755,0.0271,0.0153,0.02004,0.03261,0.00833,0.03918,0.02002
33.86,0.00584,0.01878,0.01344,0.01895,0.01542,0.01505,0.0338,0.01178,0.03962,0.01729
33.98,0.00514,0.01671,0.01368,0.02612,0.00906,0.01986,0.03337,0.00807,0.03836,0.00482
34.1,0.0076,0.01957,0.01621,0.02449,0.01582,0.02066,0.0263,0.00787,0.0388,0.00472
34.22,0.00778,0.01967,0.01787,0.01684,0.0188,0.01843,0.02945,0.00683,0.0388,0.01596
34.34,0.00771,0.02159,0.01191,0.03104,0.02149,0.02012,0.03206,0.00826,0.03862,0.01956
34.46,0.00711,0.01829,0.01194,0.01309,0.02206,0.0211,0.03434,0.00976,0.0405,0.02711
34.58,0.00609,0.0209,0.01534,0.03132,0.01569,0.01906,0.02587,0.00787,0.03334,0.01568
34.7,0.00574,0.01858,0.00753,0.02844,0.01325,0.02048,0.02934,0.00937,0.03403,0.00347
34.82,0.00528,0.01696,0.00908,0.03259,0.01669,0.01665,0.03163,0.01035,0.04044,0.04343
34.94,0.00599,0.01617,0.00802,0.02569,0.01892,0.02093,0.03424,0.00924,0.04753,0.03069
35.06,0.0075,0.01952,0.00837,0.02482,0.01225,0.01763,0.03652,0.01828,0.03623,0.03876
35.18,0.00764,0.01898,0.01253,0.01415,0.02308,0.01923,0.02924,0.01308,0.03253,0.03103
35.3,0.00926,0.02115,0.01082,0.0276,0.01551,0.01977,0.02848,0.00878,0.03592,0.03963
35.42,0.01116,0.02282,0.01607,0.03704,0.01684,0.0228,0.03054,0.00969,0.0388,0.00845
35.54,0.00968,0.0206,0.01522,0.04822,0.02676,0.02351,0.03347,0.01477,0.03899,0.02759
35.66,0.0062,0.02016,0.01743,0.0368,0.01647,0.0228,0.03021,0.01158,0.03479,0.01538
35.78,0.00591,0.01863,0.01059,0.02865,0.01478,0.01799,0.02891,0.01379,0.03391,0.02925
35.9,0.00775,0.0209,0.01519,0.03933,0.02441,0.02271,0.02956,0.01158,0.03366,0.00624
36.02,0.00715,0.01893,0.01261,0.03646,0.0197,0.01861,0.02761,0.0136,0.03347,0.03065
36.14,0.00669,0.01883,0.00665,0.02453,0.02601,0.01532,0.02804,0.00943,0.03127,0.0187
36.26,0.00694,0.0173,0.01647,0.02316,0.01949,0.01683,0.03152,0.01178,0.03177,0.00912
36.38,0.00785,0.01868,0.0141,0.0449,0.02625,0.01247,0.02358,0.01022,0.0334,0.01166
36.5,0.00753,0.01641,0.00934,0.02293,0.01843,0.01478,0.02456,0.00969,0.02537,0.02237
36.62,0.00792,0.01602,0.01034,0.02231,0.01906,0.01496,0.0238,0.00852,0.02744,0.02228
36.74,0.00789,0.0174,0.01178,0.02546,0.02467,0.01362,0.02239,0.00917,0.02694,0.01744
36.86,0.00542,0.01508,0.00898,0.02303,0.01852,0.01434,0.02369,0.00937,0.03152,0.00576
36.98,0.0063,0.01745,0.00999,0.03044,0.00889,0.01407,0.02456,0.00677,0.02945,0.02411
37.1,0.00746,0.02218,0.01622,0.02956,0.02582,0.01843,0.02924,0.00787,0.02976,0.01401
37.22,0.01278,0.03554,0.02517,0.04878,0.04939,0.03286,0.05412,0.01022,0.04464,0.03947
37.34,0.01486,0.04767,0.05241,0.05821,0.06677,0.06492,0.06684,0.02642,0.06455,0.05308
37.46,0.03007,0.10312,0.10631,0.08095,0.10693,0.08281,0.11607,0.03722,0.11384,0.10885
37.58,0.04165,0.08848,0.0825,0.10871,0.04616,0.10098,0.10499,0.07879,0.09375,0.16356
37.7,0.01387,0.03303,0.01885,0.06889,0.0222,0.05236,0.0701,0.09519,0.03786,0.15322
37.82,0.0112,0.01972,0.0142,0.02882,0.02464,0.02858,0.03652,0.027,0.03202,0.10261
37.94,0.01014,0.03101,0.03381,0.04277,0.05983,0.04096,0.04934,0.01308,0.0383,0.05832
38.06,0.0206,0.08399,0.09229,0.08259,0.10708,0.07462,0.08477,0.01789,0.08659,0.07068
38.18,0.04327,0.12604,0.11735,0.13874,0.14136,0.13455,0.14259,0.05466,0.11679,0.12995
38.3,0.06929,0.12136,0.13751,0.16399,0.11891,0.14506,0.13749,0.09656,0.14373,0.21214
38.42,0.04348,0.06098,0.05743,0.10182,0.04441,0.10846,0.09825,0.12838,0.07058,0.21554
38.54,0.00901,0.02603,0.02023,0.05522,0.01321,0.03802,0.04728,0.07359,0.03026,0.13647
38.66,0.00866,0.01893,0.01231,0.02671,0.01052,0.01977,0.02945,0.01926,0.02951,0.06716
38.78,0.00669,0.01651,0.0101,0.03789,0.01206,0.01728,0.02652,0.0121,0.02763,0.02577
38.9,0.00676,0.02208,0.02172,0.02721,0.03141,0.02306,0.03304,0.01061,0.0292,0.01626
39.02,0.01067,0.0386,0.03618,0.03865,0.04004,0.03099,0.04152,0.01295,0.04703,0.02784
39.14,0.02162,0.04367,0.0379,0.03827,0.02845,0.04604,0.04945,0.02368,0.05375,0.05706
39.26,0.01151,0.02696,0.01806,0.03865,0.01218,0.03339,0.03782,0.04015,0.03209,0.06943
39.38,0.00704,0.0176,0.01619,0.0315,0.00618,0.02102,0.0275,0.02043,0.02612,0.05649
39.5,0.00584,0.01784,0.0141,0.00876,0.01285,0.01523,0.02163,0.00865,0.02499,0.03223
39.62,0.00701,0.01498,0.01256,0.02095,0.01258,0.01425,0.01467,0.01308,0.02091,0.02036
39.74,0.00616,0.01927,0.00774,0.02133,0.01608,0.0106,0.01956,0.01002,0.0233,0.01612
39.86,0.00845,0.01681,0.01229,0.01015,0.00751,0.01754,0.02521,0.00748,0.02493,0.02348
39.98,0.00771,0.01745,0.01869,0.01957,0.01614,0.0179,0.02869,0.01223,0.0275,0.01766
40.1,0.00922,0.02721,0.02901,0.02724,0.03835,0.02805,0.03815,0.01269,0.03749,0.04162
40.22,0.01954,0.06388,0.09277,0.07133,0.10642,0.08602,0.09032,0.01464,0.0658,0.05319
40.34,0.07735,0.15714,0.21379,0.11191,0.12969,0.12912,0.12955,0.02941,0.19377,0.14434
40.46,0.0827,0.13521,0.21649,0.12259,0.06318,0.17863,0.11727,0.1151,0.12093,0.24207
40.58,0.02172,0.05215,0.07878,0.0687,0.03047,0.08602,0.0676,0.13143,0.04088,0.18593
40.7,0.00676,0.0175,0.01747,0.0324,0.01557,0.0179,0.03521,0.03871,0.02524,0.14296
40.82,0.0068,0.01686,0.01245,0.01595,0.01198,0.01443,0.01869,0.01516,0.02417,0.05282
40.94,0.00641,0.01548,0.00992,0.01206,0.01593,0.01558,0.0225,0.00865,0.02116,0.0146
41.06,0.00725,0.01913,0.01599,0.03781,0.03286,0.02333,0.02587,0.01009,0.02731,0.02881
41.18,0.01197,0.05013,0.06016,0.06432,0.08796,0.05209,0.06065,0.01178,0.04923,0.03985
41.3,0.0682,0.08981,0.08942,0.06394,0.08633,0.08549,0.08445,0.01919,0.08678,0.0891
41.42,0.04704,0.05516,0.05141,0.08191,0.0334,0.07106,0.06934,0.08328,0.05199,0.11253
41.54,0.00922,0.02184,0.01471,0.0333,0.02076,0.03464,0.03923,0.0581,0.02574,0.08089
41.66,0.00669,0.01444,0.01338,0.01936,0.01491,0.01683,0.03043,0.01607,0.02242,0.06322
41.78,0.00715,0.01577,0.01303,0.03255,0.02719,0.01451,0.02804,0.01197,0.02669,0.04107
41.9,0.00785,0.02913,0.03598,0.05755,0.05155,0.04292,0.04108,0.00937,0.03987,0.04711
42.02,0.01933,0.08385,0.10006,0.07577,0.10065,0.07845,0.07749,0.02407,0.09337,0.08213
42.14,0.03971,0.09297,0.09721,0.10453,0.0547,0.10579,0.08879,0.06097,0.09236,0.14903
42.26,0.01591,0.03835,0.0309,0.0813,0.01962,0.06189,0.0651,0.0961,0.03692,0.14796
42.38,0.00697,0.01755,0.01249,0.04224,0.02512,0.02565,0.03337,0.04099,0.02449,0.08945
42.5,0.00518,0.01735,0.00909,0.02277,0.02895,0.0211,0.02869,0.01197,0.0233,0.04621
42.62,0.00813,0.02795,0.03334,0.05857,0.0506,0.04604,0.04489,0.01529,0.03987,0.0238
42.74,0.01489,0.06585,0.06282,0.06699,0.10483,0.07863,0.07195,0.02765,0.08496,0.09149
42.86,0.02243,0.06482,0.06083,0.09777,0.06371,0.08967,0.07434,0.05973,0.08521,0.17368
42.98,0.01017,0.02805,0.02195,0.06875,0.01927,0.05824,0.05326,0.08036,0.03767,0.15153
43.1,0.00729,0.01548,0.01377,0.04351,0.01843,0.02663,0.02695,0.03481,0.0216,0.09486
43.22,0.00503,0.01346,0.00896,0.03886,0.0191,0.01612,0.02413,0.00956,0.02951,0.05795
43.34,0.00475,0.01277,0.01198,0.01638,0.02037,0.01719,0.02315,0.01373,0.027,0.0408
43.46,0.00433,0.01183,0.00902,0.02463,0.01667,0.01647,0.01706,0.01835,0.02047,0.04394
43.58,0.00489,0.01153,0.00726,0.02374,0.00934,0.00917,0.01489,0.01191,0.01884,0.02969
43.7,0.00574,0.01193,0.00887,0.02812,0.02193,0.01549,0.01554,0.00761,0.02217,0.01834
43.82,0.00563,0.01301,0.01288,0.03576,0.01762,0.013,0.01772,0.00566,0.0206,0.03677
43.94,0.0056,0.0137,0.01405,0.03135,0.02403,0.01069,0.01978,0.01178,0.02417,0.02305
44.06,0.00644,0.01706,0.01533,0.04377,0.01791,0.01879,0.02304,0.01054,0.02361,0.02777
44.18,0.00852,0.02603,0.03458,0.05443,0.05992,0.04292,0.03902,0.01074,0.03315,0.03302
44.3,0.01627,0.0838,0.10737,0.1191,0.12652,0.08584,0.07684,0.01828,0.08062,0.07286
44.42,0.05806,0.10539,0.12488,0.128,0.102,0.14061,0.10629,0.04672,0.1031,0.19042
44.54,0.03577,0.07399,0.08273,0.1349,0.11715,0.12689,0.11336,0.11517,0.07384,0.18704
44.66,0.03764,0.13403,0.15574,0.134,0.18285,0.13393,0.14129,0.07105,0.12966,0.1979
44.78,0.10249,0.14556,0.14767,0.15496,0.11699,0.16545,0.14901,0.0842,0.14272,0.27383
44.9,0.04936,0.06605,0.05545,0.09402,0.04478,0.10561,0.10086,0.1505,0.06153,0.26017
45.02,0.00796,0.01977,0.01364,0.03183,0.02825,0.03152,0.03826,0.0717,0.02248,0.14429
45.14,0.00472,0.0137,0.00959,0.03294,0.01821,0.01514,0.01924,0.01497,0.01984,0.05212
45.26,0.00539,0.01168,0.00271,0.01723,0.02069,0.01354,0.01337,0.01041,0.0152,0.03109
45.38,0.00401,0.01326,0.00421,0.02336,0.01714,0.01282,0.01587,0.00579,0.02147,0.0227
45.5,0.00465,0.0139,0.01333,0.03352,0.0243,0.0195,0.01532,0.00807,0.01821,0.01511
45.62,0.00683,0.0279,0.03334,0.04996,0.05605,0.03526,0.03869,0.00839,0.03096,0.04124
45.74,0.02208,0.0593,0.06651,0.07569,0.06502,0.05227,0.04836,0.01549,0.06153,0.06079
45.86,0.01736,0.04555,0.04167,0.07229,0.04427,0.06118,0.0501,0.05374,0.04282,0.08956
45.98,0.00701,0.01789,0.01727,0.03371,0.03,0.03339,0.0338,0.04086,0.02091,0.0709
46.1,0.00356,0.01277,0.00331,0.02829,0.01619,0.01541,0.01924,0.01405,0.01425,0.02984
46.22,0.00521,0.01025,0.00808,0.02262,0.01278,0.01264,0.01261,0.00722,0.01457,0.02304
46.34,0.00447,0.01075,0.00512,0.02248,0.0142,0.01282,0.01304,0.00722,0.01639,0.01703
46.46,0.00563,0.00912,0.00216,0.02158,0.01744,0.013,0.01065,0.00573,0.01463,0.00838
46.58,0.00394,0.01109,0.00508,0.01215,0.0157,0.01238,0.01119,0.00683,0.01501,0.0216
46.7,0.00458,0.01282,0.0056,0.01679,0.01623,0.01282,0.01293,0.00852,0.01576,0.00242
46.82,0.00405,0.01242,0.01167,0.03356,0.01992,0.01728,0.01858,0.00956,0.01903,0.0188
46.94,0.00563,0.01153,0.01448,0.02822,0.02709,0.02048,0.02598,0.00859,0.02763,0.02359
47.06,0.00412,0.01227,0.01315,0.04197,0.02369,0.03179,0.02445,0.01646,0.0378,0.05447
47.18,0.00426,0.01365,0.0078,0.02557,0.0203,0.02449,0.02608,0.02967,0.02957,0.07797
47.3,0.00401,0.01222,0.00778,0.02877,0.01449,0.01451,0.01511,0.01887,0.01928,0.06273
47.42,0.00387,0.01114,0.00623,0.01313,0.02165,0.00997,0.01304,0.00872,0.0184,0.04223
47.54,0.00394,0.01144,0.00425,0.01834,0.01735,0.01763,0.01032,0.0069,0.01224,0.0241
47.66,0.00458,0.01232,0.0051,0.0223,0.01441,0.00971,0.01532,0.00826,0.01859,0.01308
47.78,0.00426,0.01257,0.00453,0.01821,0.01267,0.01416,0.01272,0.01002,0.01796,0.02683
47.9,0.00419,0.01149,0.00821,0.0302,0.0218,0.01683,0.01522,0.01035,0.01413,0.03162
48.02,0.00591,0.02115,0.0379,0.05074,0.04179,0.02974,0.04043,0.01028,0.01984,0.03193
48.14,0.01482,0.08385,0.1095,0.10293,0.09617,0.09101,0.0626,0.01256,0.06744,0.05912
48.26,0.04982,0.09356,0.10698,0.10764,0.07603,0.13758,0.08021,0.05101,0.08891,0.1448
48.38,0.03366,0.04017,0.03697,0.11938,0.03944,0.08584,0.06728,0.1084,0.04916,0.15222
48.5,0.00672,0.01395,0.00658,0.04998,0.02247,0.03019,0.02945,0.05908,0.01739,0.10774
48.62,0.00514,0.01144,0.00449,0.03559,0.01817,0.01754,0.02293,0.01444,0.02085,0.04956
48.74,0.0068,0.00996,0.0025,0.01467,0.02126,0.01817,0.01641,0.01002,0.0184,0.04223
48.86,0.00602,0.00932,0.01141,0.02441,0.01107,0.01362,0.01848,0.01399,0.01771,0.02805
48.98,0.00479,0.00961,0.00681,0.02811,0.01914,0.01238,0.01152,0.00813,0.01419,0.02757
49.1,0.00461,0.01084,0.00679,0.02051,0.01665,0.0122,0.01424,0.00761,0.01174,0.0234
49.22,0.00419,0.01055,0.00351,0.03451,0.02035,0.01122,0.01891,0.00638,0.01551,0.02503
49.34,0.00331,0.00991,0.00599,0.0249,0.01816,0.01799,0.0125,0.0093,0.0265,0.04352
49.46,0.00489,0.01075,0.00368,0.01403,0.01672,0.01772,0.0213,0.01854,0.02549,0.0665
49.58,0.00468,0.00917,0.00257,0.02728,0.02162,0.01612,0.01522,0.01972,0.02204,0.06391
49.7,0.0031,0.00907,0.00516,0.02721,0.01672,0.01754,0.01956,0.01327,0.02424,0.04578
49.82,0.00324,0.00976,0.00971,0.02539,0.01642,0.01371,0.01554,0.01438,0.02022,0.04688
49.94,0.00342,0.01129,0.00492,0.01578,0.0137,0.01549,0.01141,0.01067,0.01563,0.03718
50.06,0.00535,0.01321,0.01445,0.01923,0.01657,0.01674,0.01304,0.00885,0.01476,0.03301
50.18,0.0057,0.01025,0.00993,0.0267,0.01205,0.01327,0.01543,0.01132,0.01312,0.03622
50.3,0.00493,0.01469,0.01826,0.03065,0.02759,0.01683,0.01967,0.00794,0.01708,0.02652
50.42,0.01275,0.02332,0.0206,0.03185,0.03151,0.0301,0.02565,0.0093,0.02788,0.03078
50.54,0.00623,0.01878,0.00944,0.0471,0.02276,0.03206,0.02891,0.02206,0.02103,0.04453
50.66,0.00472,0.0106,0.00296,0.02167,0.01702,0.01665,0.01511,0.01594,0.01595,0.03088
50.78,0.00422,0.01025,0.00541,0.03178,0.01552,0.01184,0.01587,0.00846,0.01331,0.01696
50.9,0.00479,0.00872,0.00721,0.01696,0.01521,0.01434,0.01522,0.00696,0.01319,0.03071
51.02,0.0043,0.01124,0.00955,0.02249,0.0137,0.01425,0.01206,0.00787,0.013,0.02681
51.14,0.00567,0.01326,0.01461,0.01646,0.02095,0.02084,0.01717,0.00969,0.01815,0.01575
51.26,0.00877,0.02726,0.04656,0.06268,0.08733,0.06055,0.05565,0.01178,0.03209,0.04262
51.38,0.02239,0.12856,0.16514,0.15639,0.19264,0.11799,0.11053,0.01998,0.11434,0.11429
51.5,0.08658,0.13186,0.16465,0.23829,0.12852,0.20988,0.13683,0.08712,0.1377,0.27739
51.62,0.06182,0.06038,0.07099,0.15513,0.05504,0.12939,0.11075,0.1626,0.08194,0.31955
51.74,0.00915,0.01878,0.01368,0.05942,0.0211,0.04826,0.05412,0.10092,0.02392,0.19676
51.86,0.00599,0.01232,0.00928,0.01847,0.01793,0.02146,0.01935,0.02368,0.01633,0.09954
51.98,0.00602,0.0104,0.00585,0.02349,0.01039,0.01131,0.01435,0.0108,0.01501,0.04183
52.1,0.00563,0.00956,0.00568,0.02048,0.00978,0.01523,0.01478,0.00696,0.01312,0.02892
52.22,0.00584,0.01144,0.009,0.01244,0.0137,0.01549,0.01413,0.00852,0.01413,0.02392
52.34,0.00482,0.01464,0.02756,0.03228,0.04026,0.02841,0.03087,0.01022,0.02147,0.03525
52.46,0.00951,0.05018,0.07148,0.07524,0.07255,0.06492,0.05532,0.01191,0.04829,0.0666
52.58,0.03211,0.07315,0.09918,0.12197,0.08612,0.09697,0.08608,0.02934,0.0729,0.14828
52.7,0.04725,0.06319,0.08008,0.09986,0.07375,0.10214,0.08162,0.07261,0.07378,0.18385
52.82,0.01817,0.03273,0.03942,0.07348,0.04252,0.06785,0.04815,0.08341,0.03906,0.17094
52.94,0.0063,0.0139,0.01194,0.03681,0.02276,0.03455,0.02793,0.04418,0.02009,0.10612
53.06,0.00472,0.01316,0.01428,0.02626,0.0125,0.02164,0.01576,0.01607,0.01802,0.06001
53.18,0.00542,0.014,0.01314,0.02048,0.01989,0.02128,0.02174,0.01373,0.0162,0.03419
53.3,0.00567,0.02174,0.03747,0.03907,0.04599,0.04132,0.03434,0.01646,0.02656,0.05553
53.42,0.01961,0.04821,0.05287,0.076,0.06515,0.07213,0.06108,0.01529,0.06197,0.08241
53.54,0.01211,0.04007,0.04029,0.06117,0.05384,0.07756,0.05597,0.05888,0.05651,0.14196
53.66,0.00817,0.0172,0.01749,0.0456,0.02457,0.05076,0.03923,0.05381,0.03209,0.13063
53.78,0.00493,0.00922,0.01134,0.02952,0.01778,0.02208,0.02913,0.03273,0.01595,0.07898
53.9,0.00581,0.01045,0.01379,0.02023,0.01521,0.01496,0.01554,0.01074,0.01513,0.04262
54.02,0.00549,0.01518,0.01787,0.03002,0.02532,0.02324,0.01924,0.00885,0.01463,0.04131
54.14,0.00725,0.02312,0.04764,0.04459,0.06591,0.04461,0.03793,0.008,0.02807,0.04605
54.26,0.02697,0.05644,0.08068,0.07876,0.0825,0.07507,0.05717,0.019,0.0577,0.08979
54.38,0.02169,0.06221,0.08683,0.09986,0.08401,0.09181,0.07814,0.0624,0.05243,0.12852
54.5,0.02975,0.06063,0.07512,0.10313,0.08009,0.10641,0.08195,0.05303,0.05381,0.15777
54.62,0.01901,0.07961,0.1308,0.11494,0.14647,0.11532,0.0951,0.05875,0.0685,0.14459
54.74,0.06042,0.10391,0.11899,0.17272,0.10076,0.16474,0.10455,0.05641,0.09651,0.21652
54.86,0.03267,0.06852,0.06517,0.13679,0.05127,0.12413,0.08836,0.11543,0.06386,0.21125
54.98,0.01243,0.02371,0.02266,0.05615,0.02291,0.06073,0.04902,0.07613,0.03152,0.1438
55.1,0.00486,0.01277,0.01847,0.02098,0.01174,0.026,0.02858,0.02616,0.01815,0.08215
55.22,0.00451,0.01163,0.00971,0.01822,0.01069,0.01923,0.01652,0.01757,0.01494,0.05026
55.34,0.00363,0.00986,0.01303,0.01092,0.00827,0.01959,0.01413,0.01275,0.01381,0.03419
55.46,0.00338,0.00961,0.01123,0.00773,0.01008,0.0163,0.01163,0.01093,0.01243,0.03235
55.58,0.00366,0.00764,0.01042,0.01584,0.0128,0.0122,0.01065,0.00664,0.01061,0.01944
55.7,0.0025,0.00892,0.01559,0.01441,0.00933,0.01158,0.0138,0.00488,0.01111,0.01812
55.82,0.00415,0.01065,0.01608,0.0165,0.01023,0.01416,0.01054,0.00612,0.01262,0.01891
55.94,0.00532,0.0137,0.02473,0.0319,0.02291,0.02128,0.0225,0.00625,0.01419,0.01891
56.06,0.01285,0.03031,0.04906,0.04956,0.05188,0.04693,0.04445,0.00924,0.02782,0.05105
56.18,0.01542,0.06857,0.10299,0.09736,0.11464,0.09564,0.07075,0.02518,0.05023,0.0861
56.3,0.05302,0.07537,0.11186,0.15773,0.07994,0.13232,0.07543,0.04431,0.067,0.15539
56.42,0.02616,0.04387,0.05988,0.10103,0.04991,0.0829,0.06499,0.08465,0.0469,0.15513
56.54,0.00898,0.01538,0.01956,0.04508,0.01929,0.04105,0.03358,0.04847,0.01965,0.0998
56.66,0.00549,0.01099,0.02157,0.03787,0.01989,0.02404,0.02478,0.01763,0.0157,0.06238
56.78,0.00768,0.01947,0.0275,0.02388,0.02306,0.02867,0.02869,0.01009,0.02763,0.0529
56.9,0.00764,0.01819,0.02059,0.03501,0.01597,0.03054,0.02195,0.02499,0.01833,0.04578
57.02,0.0082,0.0136,0.02304,0.03734,0.01929,0.02591,0.01685,0.01692,0.01595,0.04315
57.14,0.00405,0.01247,0.02299,0.03189,0.01718,0.0203,0.015,0.01497,0.01677,0.03129
57.26,0.00796,0.02243,0.04361,0.06387,0.04871,0.04577,0.03902,0.01633,0.02681,0.04057
57.38,0.01665,0.0694,0.09885,0.10791,0.08447,0.07907,0.06325,0.01919,0.0643,0.10258
57.5,0.03412,0.06171,0.12307,0.12055,0.0905,0.12654,0.08369,0.05862,0.06555,0.15037
57.62,0.03922,0.06024,0.09722,0.09952,0.06459,0.09617,0.07477,0.07352,0.06957,0.17576
57.74,0.01236,0.03544,0.04699,0.08075,0.04276,0.06465,0.05684,0.07795,0.03755,0.14451
57.86,0.00926,0.02105,0.02701,0.05344,0.01504,0.03446,0.03543,0.03501,0.02342,0.08479
57.98,0.00461,0.01129,0.01248,0.03317,0.01131,0.01683,0.02141,0.02134,0.01356,0.05591
58.1,0.00363,0.00823,0.01787,0.02144,0.01316,0.01362,0.01511,0.01061,0.00998,0.03387
58.22,0.00327,0.00725,0.00856,0.01749,0.01532,0.01371,0.01337,0.00481,0.01293,0.03055
58.34,0.00306,0.00611,0.01297,0.01706,0.01038,0.01781,0.00772,0.01009,0.01978,0.03513
58.46,0.00356,0.00828,0.01858,0.02493,0.01284,0.01487,0.01228,0.00982,0.01488,0.03048
58.58,0.00412,0.00813,0.01362,0.02952,0.01741,0.01496,0.00989,0.01054,0.01494,0.03954
58.7,0.00387,0.01006,0.01607,0.02708,0.01112,0.01416,0.01435,0.00937,0.01061,0.03147
58.82,0.00296,0.00951,0.017,0.02188,0.01629,0.01407,0.01282,0.01022,0.01042,0.03288
58.94,0.00437,0.0108,0.02413,0.03285,0.01814,0.02102,0.01848,0.00839,0.01476,0.0256
59.06,0.00891,0.02933,0.04519,0.05522,0.04595,0.04443,0.04021,0.01035,0.0292,0.04994
59.18,0.01613,0.06137,0.10489,0.09192,0.1089,0.08103,0.06847,0.02336,0.05733,0.11143
59.3,0.05802,0.07576,0.09994,0.13566,0.09507,0.12164,0.08173,0.04197,0.08527,0.16581
59.42,0.02091,0.04855,0.06603,0.11382,0.06177,0.09003,0.07304,0.09897,0.05469,0.17618
59.54,0.00859,0.01972,0.02451,0.05556,0.02575,0.04533,0.04076,0.0544,0.02223,0.11884
59.66,0.00426,0.01296,0.01618,0.02995,0.01538,0.01665,0.02293,0.0205,0.01501,0.07257
59.78,0.00415,0.00937,0.01384,0.02696,0.01603,0.01505,0.01315,0.00982,0.0125,0.04394
59.9,0.00275,0.00582,0.01683,0.0217,0.00808,0.01104,0.00609,0.00566,0.01293,0.03298
60.02,0.00278,0.00754,0.01413,0.01569,0.02079,0.00828,0.00804,0.00638,0.00741,0.02359
60.14,0.00331,0.00739,0.02346,0.02551,0.01194,0.0122,0.01022,0.00573,0.00804,0.02053
60.26,0.00197,0.00705,0.01309,0.0205,0.01168,0.01024,0.00652,0.00371,0.00841,0.01825
60.38,0.00201,0.0067,0.01502,0.01349,0.01534,0.00926,0.01043,0.00384,0.00936,0.02757
60.5,0.00261,0.00769,0.01413,0.02305,0.01659,0.0098,0.0088,0.00651,0.01067,0.01634
60.62,0.00387,0.0102,0.02357,0.04317,0.02448,0.02164,0.01804,0.00625,0.01036,0.02724
60.74,0.00634,0.03105,0.06762,0.05475,0.05591,0.04159,0.03587,0.00709,0.02926,0.05527
60.86,0.03052,0.04772,0.0701,0.09119,0.04976,0.0724,0.05271,0.01848,0.04546,0.12321
60.98,0.01253,0.03391,0.05059,0.07338,0.04453,0.05654,0.04163,0.05095,0.0346,0.10667
61.1,0.00616,0.0172,0.02781,0.0528,0.03144,0.03882,0.02684,0.02987,0.02292,0.08302
61.22,0.00609,0.01321,0.0169,0.04553,0.02017,0.02119,0.01978,0.01789,0.01337,0.06147
61.34,0.00334,0.01218,0.01502,0.04404,0.02107,0.01772,0.01293,0.01275,0.01683,0.0647
61.46,0.00317,0.00951,0.01662,0.03376,0.02153,0.02476,0.0188,0.01516,0.01256,0.05264
61.58,0.00507,0.01385,0.02465,0.03328,0.02062,0.01861,0.01848,0.01152,0.01651,0.05349
61.7,0.00422,0.01183,0.0194,0.04159,0.01549,0.02057,0.01869,0.01607,0.013,0.04117
61.82,0.00334,0.00774,0.01458,0.03558,0.01308,0.01478,0.0138,0.00878,0.0081,0.03543
61.94,0.00296,0.00577,0.01412,0.02631,0.01519,0.0114,0.01119,0.00761,0.00647,0.02653
62.06,0.00299,0.00739,0.01387,0.02507,0.01066,0.00757,0.00706,0.00579,0.01093,0.02238
62.18,0.00324,0.01035,0.02375,0.0369,0.02168,0.0195,0.0138,0.00468,0.01074,0.04536
62.3,0.00989,0.02041,0.02916,0.04646,0.02937,0.02217,0.01815,0.00781,0.02242,0.05649
62.42,0.00834,0.01454,0.04426,0.04874,0.01594,0.02743,0.02402,0.01985,0.0179,0.06024
62.54,0.01014,0.01149,0.02214,0.03268,0.01504,0.02004,0.0163,0.0149,0.01469,0.06083
62.66,0.00345,0.00838,0.01308,0.03547,0.00946,0.01621,0.00956,0.01731,0.0081,0.04692
62.78,0.0025,0.00552,0.01349,0.02016,0.01157,0.00944,0.00946,0.00573,0.00854,0.03223
62.9,0.00282,0.00537,0.01302,0.03425,0.0078,0.00588,0.00467,0.00325,0.00496,0.02175
63.02,0.00225,0.00734,0.01484,0.02472,0.00991,0.00971,0.00869,0.00429,0.00747,0.02893
63.14,0.00236,0.00631,0.01155,0.04258,0.01051,0.00686,0.005,0.00397,0.00684,0.01818
63.26,0.00246,0.00567,0.01054,0.02527,0.00433,0.00534,0.0063,0.00449,0.00465,0.02773
63.38,0.00236,0.00616,0.0103,0.03609,0.00735,0.00873,0.00772,0.00215,0.00521,0.03253
63.5,0.00155,0.00498,0.00744,0.02807,0.01157,0.00499,2.17E-04,0.00169,0.00553,0.02578
63.62,0.00204,0.00414,0.00676,0.02608,0.01157,0.00606,0.00391,1.30E-04,0.00885,0.01404
63.74,0.00116,0.00518,0.00499,0.02911,0.01066,0.00953,0.00674,0.00111,0.00433,0.0363
63.86,0.00109,0.00547,0.0079,0.03064,0.01413,0.00401,0.00685,0.00176,0.00848,0.03142
63.98,0.00292,0.00552,0.01288,0.03393,0.01625,0.01006,0.00652,0.0026,0.00659,0.01179
64.1,0.00144,0.00675,0.0098,0.03909,0.01413,0.01077,0.00467,0.00403,0.0054,0.02377
64.22,0.00183,0.00734,0.01184,0.02246,0.01791,0.01077,0.01217,0.00371,0.00841,0.0239
64.34,0.00303,0.01144,0.02346,0.04828,0.02711,0.02208,0.01554,0.00592,0.01293,0.03193
64.46,0.00796,0.02332,0.03236,0.05828,0.02155,0.03384,0.02728,0.0082,0.0253,0.05945
64.58,0.00489,0.01725,0.02177,0.05697,0.02283,0.0293,0.02076,0.0229,0.01695,0.06538
64.7,0.00342,0.01129,0.01576,0.0328,0.01113,0.01906,0.01554,0.01334,0.0118,0.04917
64.82,0.00331,0.00956,0.0117,0.02145,0.01423,0.01398,0.01456,0.01392,0.01055,0.04297
64.94,0.00542,0.00808,0.00765,0.03521,0.01883,0.01291,0.01076,0.00677,0.01005,0.03387
65.06,0.0019,0.00764,0.01056,0.02034,0.01,0.01362,0.01532,0.00755,0.01224,0.0369
65.18,0.0031,0.00838,0.00966,0.02581,0.01506,0.01291,0.01109,0.0069,0.0108,0.02596
65.3,0.00303,0.00981,0.01214,0.03531,0.01679,0.0122,0.01304,0.00716,0.0098,0.04584
65.42,0.00408,0.01568,0.02811,0.04103,0.04629,0.02787,0.02413,0.00891,0.01526,0.0299
65.54,0.01032,0.05126,0.07859,0.07625,0.06748,0.05102,0.0425,0.01093,0.03811,0.06691
65.66,0.03415,0.04106,0.0631,0.0834,0.05111,0.07284,0.05445,0.03156,0.04257,0.11209
65.78,0.01609,0.03524,0.04392,0.07749,0.03097,0.04666,0.03847,0.0447,0.03196,0.09272
65.9,0.00796,0.01149,0.01581,0.03641,0.01701,0.02565,0.02706,0.02791,0.01526,0.05332
66.02,0.00292,0.00744,0.01023,0.01743,0.00788,0.01095,0.01598,0.01093,0.00672,0.03132
66.14,0.00306,0.00932,0.00846,0.01428,0.01022,0.01451,0.00804,0.00664,0.00816,0.02591
66.26,0.00345,0.00877,0.02029,0.0257,0.02599,0.01514,0.01337,0.00755,0.01432,0.0282
66.38,0.005,0.02445,0.04497,0.03989,0.05201,0.03455,0.02304,0.00976,0.02097,0.02494
66.5,0.01546,0.02524,0.0395,0.05056,0.02901,0.04586,0.02869,0.01744,0.02738,0.06411
66.62,0.00669,0.02031,0.0312,0.0366,0.02938,0.03589,0.03206,0.02817,0.02147,0.05401
66.74,0.00465,0.0138,0.02399,0.02617,0.02267,0.02725,0.02445,0.01861,0.01224,0.04812
66.86,0.00521,0.02391,0.02854,0.0401,0.03768,0.02689,0.02413,0.01165,0.01771,0.04855
66.98,0.00982,0.01927,0.02644,0.01862,0.01814,0.03651,0.02489,0.01789,0.01808,0.05716
67.1,0.00785,0.01725,0.0177,0.02752,0.02244,0.02573,0.02521,0.01991,0.01526,0.04125
67.22,0.00454,0.01415,0.02965,0.0289,0.03262,0.02796,0.01913,0.01516,0.01551,0.04459
67.34,0.00986,0.0206,0.02897,0.03102,0.02727,0.02752,0.01924,0.01392,0.02311,0.05003
67.46,0.00461,0.014,0.02208,0.0324,0.02387,0.0187,0.01619,0.02115,0.01526,0.04388
67.58,0.00609,0.01124,0.01237,0.0089,0.01882,0.01594,0.01837,0.01236,0.01036,0.01849
67.7,0.00292,0.01686,0.02736,0.02635,0.02915,0.02093,0.01815,0.0095,0.01413,0.03104
67.82,0.01348,0.02534,0.03267,0.01541,0.02875,0.03927,0.02945,0.01249,0.02436,0.0407
67.94,0.00556,0.01528,0.02067,0.02734,0.02429,0.03152,0.0275,0.02928,0.01677,0.03903
68.06,0.00676,0.0138,0.01792,0.01778,0.01411,0.0252,0.01978,0.01919,0.01319,0.03762
68.18,0.0032,0.01134,0.01528,0.00908,0.02459,0.01915,0.02011,0.01353,0.01005,0.03015
68.3,0.00528,0.0313,0.04703,0.0343,0.05092,0.02965,0.02739,0.00807,0.01978,0.04587
68.42,0.02236,0.02534,0.03504,0.05249,0.03787,0.05654,0.03652,0.01692,0.02895,0.08108
68.54,0.00757,0.02534,0.03251,0.03475,0.02738,0.03028,0.03217,0.0352,0.02173,0.07967
68.66,0.00634,0.01232,0.01453,0.03359,0.01297,0.02769,0.02402,0.02427,0.01275,0.05956
68.78,0.00345,0.01065,0.02038,0.02213,0.01998,0.01861,0.02011,0.01087,0.01394,0.03232
68.9,0.00768,0.01839,0.03789,0.04308,0.03379,0.03526,0.025,0.01269,0.01833,0.04383
69.02,0.01246,0.02982,0.04657,0.05021,0.03311,0.03998,0.02793,0.02134,0.03209,0.06376
69.14,0.00669,0.01848,0.02989,0.04227,0.02126,0.03802,0.03032,0.03462,0.01595,0.06244
69.26,0.00856,0.01469,0.01659,0.0288,0.01258,0.02841,0.01935,0.0162,0.01545,0.05029
69.38,0.00327,0.00754,0.00906,0.0191,0.01386,0.01256,0.01445,0.01523,0.00785,0.02391
69.5,0.00204,0.01326,0.0086,0.02146,0.01243,0.01024,0.01348,0.00579,0.01074,0.02335
69.62,0.00239,0.00661,0.01304,0.0198,0.01296,0.00864,0.01022,0.00534,0.00772,0.02174
69.74,0.00137,0.00744,0.00399,0.00884,0.01152,0.00935,0.01261,0.00416,0.00728,0.02567
69.86,0.00187,0.00527,0.00603,0.01294,0.01657,0.013,0.00891,0.00488,0.00867,0.01641
69.98,0.00236,0.00582,0.00851,0.01328,0.02238,0.0089,0.00804,0.0067,0.00948,0.02113
70.1,0.00201,0.00695,0.0098,0.02391,0.01416,0.0122,0.01,0.00677,0.00936,0.029
70.22,0.00282,0.00971,0.02011,0.02399,0.02027,0.01915,0.01152,0.00846,0.00942,0.01685
70.34,0.00831,0.01484,0.01324,0.04266,0.01883,0.02004,0.01348,0.00872,0.01538,0.03527
70.46,0.00363,0.01055,0.01659,0.03395,0.02041,0.01728,0.01206,0.01503,0.01061,0.02812
70.58,0.00405,0.00902,0.01254,0.03579,0.01641,0.01478,0.01119,0.01048,0.01105,0.03073
70.7,0.0018,0.00784,0.00871,0.03186,0.02071,0.01104,0.01532,0.00924,0.00647,0.02569
70.82,0.00324,0.00813,0.01957,0.02767,0.0238,0.01745,0.0125,0.00703,0.00885,0.02935
70.94,0.00732,0.01814,0.03478,0.03704,0.02916,0.02351,0.01565,0.00729,0.01758,0.04091
71.06,0.00577,0.0141,0.02388,0.03738,0.02503,0.02342,0.01685,0.02063,0.01093,0.04246
71.18,0.00641,0.01257,0.02385,0.02992,0.02109,0.01861,0.01424,0.01275,0.01344,0.04112
71.3,0.00306,0.00725,0.01295,0.03553,0.01806,0.01398,0.01435,0.01379,0.01237,0.03081
71.42,0.00412,0.01311,0.01554,0.02933,0.02211,0.02173,0.02032,0.00716,0.01658,0.05107
71.54,0.00518,0.01232,0.02139,0.03394,0.02919,0.0252,0.02391,0.01633,0.01683,0.05526
71.66,0.00563,0.0245,0.05141,0.06216,0.06116,0.0488,0.04608,0.01379,0.02625,0.06814
71.78,0.01722,0.06566,0.11441,0.12504,0.11138,0.09911,0.07673,0.02733,0.06373,0.13213
71.9,0.03507,0.09474,0.14541,0.17813,0.13958,0.15067,0.10716,0.06175,0.081,0.22406
72.02,0.0544,0.08395,0.10762,0.17822,0.09068,0.16296,0.10162,0.07827,0.08477,0.27726
72.14,0.02313,0.0522,0.06634,0.12604,0.06561,0.09849,0.08173,0.09213,0.04383,0.19739
72.26,0.01595,0.01972,0.02975,0.0902,0.03376,0.05334,0.0426,0.04828,0.02512,0.12437
72.38,0.00447,0.00927,0.01122,0.04205,0.02273,0.02137,0.02271,0.02668,0.01168,0.07613
72.5,0.0037,0.00754,0.01349,0.04389,0.01954,0.01327,0.015,0.01139,0.0076,0.03425
72.62,0.00243,0.01321,0.02598,0.04372,0.03748,0.01772,0.01717,0.00761,0.01275,0.02588
72.74,0.00676,0.01429,0.02226,0.05687,0.02087,0.02752,0.02108,0.01022,0.01375,0.04386
72.86,0.0037,0.0107,0.01712,0.04464,0.02689,0.01638,0.01587,0.01484,0.01212,0.03628
72.98,0.00405,0.00754,0.00937,0.03467,0.01857,0.01425,0.0125,0.00872,0.0098,0.03265
73.1,0.0018,0.00513,0.00924,0.02696,0.01237,0.0081,0.00663,0.00644,0.00634,0.02981
73.22,0.0019,0.00453,0.00693,0.02453,0.01718,0.00801,0.00467,0.00468,0.00327,0.01064
73.34,0.00134,0.00601,0.00288,0.02462,0.01384,0.00588,0.00174,0.00423,0.00609,0.00833
73.46,0.00127,0.00404,0.00384,0.01261,0.0179,0.00712,0.00304,0.00514,0.00502,0.02499
73.58,0.0012,0.00453,0.00479,0.0219,0.01668,0.00427,0.00348,0.00442,0.00483,0.02689
73.7,4.93E-04,0.00355,0.00662,0.02366,0.01379,0.00374,0.00283,0.0026,0.0017,0.01062
73.82,0.00116,0.00449,0.00725,0.02115,0.01453,0.00623,0.00533,0.00195,0.00446,0.02544
73.94,0.00327,0.00315,0.00865,0.03245,0.01587,0.00632,0.0063,0.00442,0.00578,0.03156
74.06,0.00285,0.00759,0.00786,0.01035,0.01887,0.00855,0.00239,0.00579,0.00898,0.02529
74.18,0.00169,0.00537,0.01034,0.02567,0.0181,0.01149,0.00978,0.00488,0.00534,0.02773
74.3,0.0025,0.00803,0.02153,0.04074,0.03151,0.01728,0.01087,0.00586,0.00948,0.02779
74.42,0.00405,0.02021,0.04284,0.05984,0.04552,0.03517,0.02043,0.00787,0.02047,0.05341
74.54,0.01106,0.02026,0.03422,0.06411,0.03611,0.04524,0.02793,0.01919,0.02373,0.07876
74.66,0.00588,0.01356,0.02701,0.04602,0.03619,0.02956,0.01793,0.02427,0.01752,0.07303
74.78,0.00588,0.00882,0.01317,0.04577,0.02103,0.01995,0.01772,0.01633,0.01187,0.06466
74.9,0.00313,0.00734,0.01032,0.02693,0.02352,0.01443,0.01348,0.01275,0.00954,0.04496
75.02,0.0043,0.01163,0.014,0.01914,0.02149,0.01621,0.00956,0.0056,0.01243,0.04897
75.14,0.0037,0.00725,0.01125,0.03195,0.02292,0.01576,0.01554,0.01269,0.01093,0.04139
75.26,0.00275,0.01001,0.0133,0.02467,0.015,0.01692,0.00869,0.0093,0.00854,0.0409
75.38,0.00155,0.00453,0.00968,0.01939,0.01433,0.01193,0.00663,0.00956,0.00904,0.04665
75.5,0.0013,0.0071,0.01478,0.01763,0.01833,0.01567,0.01619,0.00709,0.01262,0.0474
75.62,0.00556,0.01213,0.01889,0.03396,0.0338,0.01959,0.01163,0.00742,0.01589,0.04287
75.74,0.00366,0.00863,0.01234,0.04074,0.02211,0.01879,0.01587,0.01555,0.00854,0.04388
75.86,0.00479,0.01178,0.02178,0.03848,0.03154,0.02173,0.01326,0.0095,0.01149,0.04173
75.98,0.00546,0.01853,0.02601,0.04049,0.0289,0.02805,0.02141,0.00969,0.01727,0.04484
76.1,0.00461,0.01084,0.01619,0.02994,0.02385,0.02404,0.01837,0.0231,0.00948,0.04111
76.22,0.00433,0.00981,0.01486,0.03974,0.01668,0.01879,0.01206,0.00839,0.01099,0.04396
76.34,0.00275,0.00503,0.00624,0.01989,0.01676,0.01184,0.01163,0.01223,0.00678,0.03443
76.46,0.00204,0.00409,0.01199,0.02266,0.01639,0.00899,0.00706,0.00332,0.00333,0.02226
76.58,0.00151,0.00946,0.01555,0.02935,0.0231,0.01264,0.01043,0.00455,0.00659,0.0259
76.7,0.0025,0.00976,0.01989,0.03105,0.0351,0.01977,0.01543,0.00839,0.01162,0.04245
76.82,0.00331,0.02065,0.03347,0.05435,0.03231,0.02627,0.02467,0.01119,0.01903,0.05822
76.94,0.00697,0.01311,0.02017,0.04675,0.0262,0.02912,0.02217,0.02017,0.01356,0.06607
77.06,0.00342,0.01203,0.01634,0.04041,0.01919,0.02004,0.01282,0.0151,0.01582,0.04837
77.18,0.00285,0.00651,0.01087,0.02553,0.00961,0.01638,0.01076,0.00807,0.00634,0.03594
77.3,0.00225,0.0033,0.00747,0.02522,0.01029,0.00917,0.00619,0.00885,0.00257,0.03326
77.42,0.00134,0.00311,0.00898,0.01963,0.01263,0.00935,0.00109,0.00436,0.00314,0.02558
77.54,0.00211,0.00237,0.00319,0.02032,0.00698,0.0041,0.00728,0.00156,0.00546,0.02816
77.66,5.28E-04,0,0.00392,0.01926,0.00223,0.00445,0.00402,0.00228,0.0044,0.03781
77.78,4.58E-04,0.00261,0.0027,0.01794,0.01423,0.00775,0.00141,0.00442,0.00553,0.02764
77.9,3.52E-04,0.00409,0.01226,0.0214,0.01133,3.56E-04,0.00283,0.00215,0.00597,0.02697
78.02,5.63E-04,0.00567,0.01017,0.02134,0.01785,0.00561,0.00543,0.00312,0.00421,0.03235
78.14,0.00359,0.01168,0.01439,0.03183,0.01864,0.01167,0.01076,0.00514,0.00967,0.04326
78.26,0.00151,0.0069,0.0073,0.02724,0.02155,0.01291,0.00913,0.01308,0.00546,0.04707
78.38,0.00282,0.0069,0.01152,0.02341,0.01404,0.00882,0.01076,0.00703,0.00917,0.03611
78.5,0.0018,0.00508,0.01106,0.02963,0.01136,0.00899,0.00587,0.00742,0.00465,0.02648
78.62,0.00183,0.00315,0.01126,0.02681,0.01637,0.00917,0.01076,0.00508,0.00666,0.03976
78.74,0.0012,0.00498,0.00546,0.02474,0.00932,0.00962,0.00826,0.00416,0.00879,0.05331
78.86,0.00113,0.00301,0.00631,0.0282,0.01328,0.01095,0.01141,0.00813,0.00917,0.04341
78.98,0,0.00246,0.01021,0.02035,0.01588,0.00552,0.0013,0.00605,0.00465,0.03562
79.1,0.00134,0.00286,0.00703,0.02883,0.00973,0.00597,0.00478,0.00553,0.00421,0.03652
79.22,7.75E-04,0.00296,0.00821,0.02302,0.01504,0.00793,0.00217,0.00189,0.00201,0.02399
79.34,0.00155,0.00675,0.00829,0.02131,0.01221,0.01024,0.00869,0.0015,0.00496,0.02147
79.46,0.00313,0.00759,0.01328,0.03192,0.01346,0.00721,0.00717,0.0054,0.00829,0.03528
79.58,0.00377,0.00532,0.01554,0.02519,0.01862,0.01407,0.00826,0.00267,0.00823,0.03434
79.7,0.00236,0.00892,0.01998,0.03905,0.02484,0.01371,0.01598,0.00774,0.00678,0.0384
79.82,0.00599,0.01878,0.02649,0.0489,0.02775,0.02716,0.01728,0.00969,0.01476,0.06039
79.94,0.00345,0.00734,0.01634,0.04016,0.02311,0.01781,0.01424,0.01646,0.01137,0.04889
80,0.00292,0.00922,0.01715,0.03617,0.02343,0.01719,0.01532,0.01477,0.0086,0.04333